File: cv-2.csv
May 29, 2020   20:40:20
Cyclic Voltammetry
File: h:\mof-crpyz-edlc(pseduca)\6-3electrode-1m emimcl\1-12.6mg-cm2-0.8\cv-2.csv
Data Source:  Experiment
Instrument Model:  CHI660E
Header:
Note:

Init E (V) = 0
High E (V) = 0.8
Low E (V) = 0
Init P/N = P
Scan Rate (V/s) = 0.002
Segment = 4
Sample Interval (V) = 0.001
Quiet Time (sec) = 2
Sensitivity (A/V) = 0.001

Segment 1:
Segment 2:

Segment 3:
Segment 4:

Potential/V, Current/A, Charge/C, Time/s

0.000, -8.381e-4, -4.190e-4, 5.000e-1
0.003, -5.173e-4, -1.319e-3, 2.000e+0
0.006, -3.774e-4, -1.945e-3, 3.500e+0
0.009, -2.944e-4, -2.424e-3, 5.000e+0
0.012, -2.396e-4, -2.810e-3, 6.500e+0
0.015, -1.970e-4, -3.126e-3, 8.000e+0
0.018, -1.631e-4, -3.387e-3, 9.500e+0
0.021, -1.364e-4, -3.604e-3, 1.100e+1
0.024, -1.116e-4, -3.783e-3, 1.250e+1
0.027, -8.819e-5, -3.927e-3, 1.400e+1
0.030, -6.829e-5, -4.039e-3, 1.550e+1
0.033, -5.183e-5, -4.125e-3, 1.700e+1
0.036, -3.801e-5, -4.188e-3, 1.850e+1
0.039, -2.567e-5, -4.233e-3, 2.000e+1
0.042, -1.518e-5, -4.261e-3, 2.150e+1
0.045, -6.290e-6, -4.275e-3, 2.300e+1
0.048, 3.838e-6, -4.274e-3, 2.450e+1
0.051, 1.314e-5, -4.258e-3, 2.600e+1
0.054, 2.123e-5, -4.230e-3, 2.750e+1
0.057, 2.835e-5, -4.191e-3, 2.900e+1
0.060, 3.490e-5, -4.142e-3, 3.050e+1
0.063, 4.093e-5, -4.084e-3, 3.200e+1
0.066, 4.654e-5, -4.017e-3, 3.350e+1
0.069, 5.188e-5, -3.942e-3, 3.500e+1
0.072, 5.714e-5, -3.859e-3, 3.650e+1
0.075, 6.222e-5, -3.768e-3, 3.800e+1
0.078, 6.656e-5, -3.670e-3, 3.950e+1
0.081, 7.074e-5, -3.566e-3, 4.100e+1
0.084, 7.501e-5, -3.456e-3, 4.250e+1
0.087, 7.864e-5, -3.340e-3, 4.400e+1
0.090, 8.267e-5, -3.218e-3, 4.550e+1
0.093, 8.687e-5, -3.089e-3, 4.700e+1
0.096, 9.056e-5, -2.955e-3, 4.850e+1
0.099, 9.450e-5, -2.815e-3, 5.000e+1
0.102, 9.837e-5, -2.670e-3, 5.150e+1
0.105, 1.017e-4, -2.519e-3, 5.300e+1
0.108, 1.054e-4, -2.362e-3, 5.450e+1
0.111, 1.089e-4, -2.201e-3, 5.600e+1
0.114, 1.116e-4, -2.035e-3, 5.750e+1
0.117, 1.151e-4, -1.864e-3, 5.900e+1
0.120, 1.181e-4, -1.688e-3, 6.050e+1
0.123, 1.216e-4, -1.507e-3, 6.200e+1
0.126, 1.248e-4, -1.322e-3, 6.350e+1
0.129, 1.282e-4, -1.131e-3, 6.500e+1
0.132, 1.313e-4, -9.356e-4, 6.650e+1
0.135, 1.343e-4, -7.359e-4, 6.800e+1
0.138, 1.370e-4, -5.317e-4, 6.950e+1
0.141, 1.403e-4, -3.228e-4, 7.100e+1
0.144, 1.431e-4, -1.092e-4, 7.250e+1
0.147, 1.458e-4, 1.084e-4, 7.400e+1
0.150, 1.483e-4, 3.295e-4, 7.550e+1
0.153, 1.512e-4, 5.548e-4, 7.700e+1
0.156, 1.534e-4, 7.836e-4, 7.850e+1
0.159, 1.552e-4, 1.015e-3, 8.000e+1
0.162, 1.574e-4, 1.250e-3, 8.150e+1
0.165, 1.595e-4, 1.489e-3, 8.300e+1
0.168, 1.611e-4, 1.730e-3, 8.450e+1
0.171, 1.630e-4, 1.974e-3, 8.600e+1
0.174, 1.646e-4, 2.220e-3, 8.750e+1
0.177, 1.662e-4, 2.468e-3, 8.900e+1
0.180, 1.675e-4, 2.719e-3, 9.050e+1
0.183, 1.686e-4, 2.971e-3, 9.200e+1
0.186, 1.694e-4, 3.224e-3, 9.350e+1
0.189, 1.701e-4, 3.479e-3, 9.500e+1
0.192, 1.703e-4, 3.735e-3, 9.650e+1
0.195, 1.713e-4, 3.991e-3, 9.800e+1
0.198, 1.717e-4, 4.249e-3, 9.950e+1
0.201, 1.720e-4, 4.507e-3, 1.010e+2
0.204, 1.719e-4, 4.764e-3, 1.025e+2
0.207, 1.723e-4, 5.022e-3, 1.040e+2
0.210, 1.723e-4, 5.281e-3, 1.055e+2
0.213, 1.725e-4, 5.539e-3, 1.070e+2
0.216, 1.724e-4, 5.798e-3, 1.085e+2
0.219, 1.724e-4, 6.057e-3, 1.100e+2
0.222, 1.727e-4, 6.316e-3, 1.115e+2
0.225, 1.729e-4, 6.575e-3, 1.130e+2
0.228, 1.732e-4, 6.834e-3, 1.145e+2
0.231, 1.733e-4, 7.094e-3, 1.160e+2
0.234, 1.731e-4, 7.354e-3, 1.175e+2
0.237, 1.731e-4, 7.614e-3, 1.190e+2
0.240, 1.725e-4, 7.873e-3, 1.205e+2
0.243, 1.725e-4, 8.132e-3, 1.220e+2
0.246, 1.725e-4, 8.391e-3, 1.235e+2
0.249, 1.723e-4, 8.649e-3, 1.250e+2
0.252, 1.721e-4, 8.907e-3, 1.265e+2
0.255, 1.721e-4, 9.165e-3, 1.280e+2
0.258, 1.721e-4, 9.423e-3, 1.295e+2
0.261, 1.720e-4, 9.681e-3, 1.310e+2
0.264, 1.721e-4, 9.939e-3, 1.325e+2
0.267, 1.721e-4, 1.020e-2, 1.340e+2
0.270, 1.719e-4, 1.046e-2, 1.355e+2
0.273, 1.721e-4, 1.071e-2, 1.370e+2
0.276, 1.721e-4, 1.097e-2, 1.385e+2
0.279, 1.718e-4, 1.123e-2, 1.400e+2
0.282, 1.712e-4, 1.149e-2, 1.415e+2
0.285, 1.709e-4, 1.174e-2, 1.430e+2
0.288, 1.708e-4, 1.200e-2, 1.445e+2
0.291, 1.703e-4, 1.226e-2, 1.460e+2
0.294, 1.704e-4, 1.251e-2, 1.475e+2
0.297, 1.705e-4, 1.277e-2, 1.490e+2
0.300, 1.704e-4, 1.302e-2, 1.505e+2
0.303, 1.706e-4, 1.328e-2, 1.520e+2
0.306, 1.702e-4, 1.353e-2, 1.535e+2
0.309, 1.701e-4, 1.379e-2, 1.550e+2
0.312, 1.699e-4, 1.404e-2, 1.565e+2
0.315, 1.696e-4, 1.430e-2, 1.580e+2
0.318, 1.695e-4, 1.455e-2, 1.595e+2
0.321, 1.693e-4, 1.481e-2, 1.610e+2
0.324, 1.694e-4, 1.506e-2, 1.625e+2
0.327, 1.691e-4, 1.531e-2, 1.640e+2
0.330, 1.686e-4, 1.557e-2, 1.655e+2
0.333, 1.684e-4, 1.582e-2, 1.670e+2
0.336, 1.682e-4, 1.607e-2, 1.685e+2
0.339, 1.679e-4, 1.633e-2, 1.700e+2
0.342, 1.675e-4, 1.658e-2, 1.715e+2
0.345, 1.672e-4, 1.683e-2, 1.730e+2
0.348, 1.668e-4, 1.708e-2, 1.745e+2
0.351, 1.665e-4, 1.733e-2, 1.760e+2
0.354, 1.658e-4, 1.758e-2, 1.775e+2
0.357, 1.653e-4, 1.783e-2, 1.790e+2
0.360, 1.651e-4, 1.807e-2, 1.805e+2
0.363, 1.647e-4, 1.832e-2, 1.820e+2
0.366, 1.644e-4, 1.857e-2, 1.835e+2
0.369, 1.638e-4, 1.881e-2, 1.850e+2
0.372, 1.633e-4, 1.906e-2, 1.865e+2
0.375, 1.627e-4, 1.930e-2, 1.880e+2
0.378, 1.619e-4, 1.955e-2, 1.895e+2
0.381, 1.615e-4, 1.979e-2, 1.910e+2
0.384, 1.611e-4, 2.003e-2, 1.925e+2
0.387, 1.609e-4, 2.027e-2, 1.940e+2
0.390, 1.610e-4, 2.051e-2, 1.955e+2
0.393, 1.608e-4, 2.075e-2, 1.970e+2
0.396, 1.607e-4, 2.100e-2, 1.985e+2
0.399, 1.603e-4, 2.124e-2, 2.000e+2
0.402, 1.599e-4, 2.148e-2, 2.015e+2
0.405, 1.595e-4, 2.172e-2, 2.030e+2
0.408, 1.593e-4, 2.195e-2, 2.045e+2
0.411, 1.595e-4, 2.219e-2, 2.060e+2
0.414, 1.592e-4, 2.243e-2, 2.075e+2
0.417, 1.593e-4, 2.267e-2, 2.090e+2
0.420, 1.595e-4, 2.291e-2, 2.105e+2
0.423, 1.596e-4, 2.315e-2, 2.120e+2
0.426, 1.596e-4, 2.339e-2, 2.135e+2
0.429, 1.597e-4, 2.363e-2, 2.150e+2
0.432, 1.598e-4, 2.387e-2, 2.165e+2
0.435, 1.608e-4, 2.411e-2, 2.180e+2
0.438, 1.604e-4, 2.435e-2, 2.195e+2
0.441, 1.609e-4, 2.459e-2, 2.210e+2
0.444, 1.623e-4, 2.484e-2, 2.225e+2
0.447, 1.631e-4, 2.508e-2, 2.240e+2
0.450, 1.647e-4, 2.533e-2, 2.255e+2
0.453, 1.644e-4, 2.557e-2, 2.270e+2
0.456, 1.652e-4, 2.582e-2, 2.285e+2
0.459, 1.656e-4, 2.607e-2, 2.300e+2
0.462, 1.662e-4, 2.632e-2, 2.315e+2
0.465, 1.670e-4, 2.657e-2, 2.330e+2
0.468, 1.680e-4, 2.682e-2, 2.345e+2
0.471, 1.696e-4, 2.707e-2, 2.360e+2
0.474, 1.704e-4, 2.733e-2, 2.375e+2
0.477, 1.713e-4, 2.758e-2, 2.390e+2
0.480, 1.724e-4, 2.784e-2, 2.405e+2
0.483, 1.741e-4, 2.810e-2, 2.420e+2
0.486, 1.753e-4, 2.836e-2, 2.435e+2
0.489, 1.777e-4, 2.863e-2, 2.450e+2
0.492, 1.797e-4, 2.890e-2, 2.465e+2
0.495, 1.809e-4, 2.917e-2, 2.480e+2
0.498, 1.827e-4, 2.944e-2, 2.495e+2
0.501, 1.846e-4, 2.972e-2, 2.510e+2
0.504, 1.865e-4, 3.000e-2, 2.525e+2
0.507, 1.887e-4, 3.028e-2, 2.540e+2
0.510, 1.911e-4, 3.056e-2, 2.555e+2
0.513, 1.940e-4, 3.085e-2, 2.570e+2
0.516, 1.964e-4, 3.115e-2, 2.585e+2
0.519, 1.987e-4, 3.144e-2, 2.600e+2
0.522, 2.015e-4, 3.174e-2, 2.615e+2
0.525, 2.040e-4, 3.205e-2, 2.630e+2
0.528, 2.067e-4, 3.236e-2, 2.645e+2
0.531, 2.094e-4, 3.267e-2, 2.660e+2
0.534, 2.123e-4, 3.299e-2, 2.675e+2
0.537, 2.151e-4, 3.331e-2, 2.690e+2
0.540, 2.179e-4, 3.364e-2, 2.705e+2
0.543, 2.209e-4, 3.396e-2, 2.720e+2
0.546, 2.241e-4, 3.430e-2, 2.735e+2
0.549, 2.270e-4, 3.464e-2, 2.750e+2
0.552, 2.296e-4, 3.498e-2, 2.765e+2
0.555, 2.327e-4, 3.533e-2, 2.780e+2
0.558, 2.355e-4, 3.568e-2, 2.795e+2
0.561, 2.382e-4, 3.604e-2, 2.810e+2
0.564, 2.407e-4, 3.640e-2, 2.825e+2
0.567, 2.431e-4, 3.676e-2, 2.840e+2
0.570, 2.453e-4, 3.713e-2, 2.855e+2
0.573, 2.470e-4, 3.750e-2, 2.870e+2
0.576, 2.486e-4, 3.787e-2, 2.885e+2
0.579, 2.503e-4, 3.824e-2, 2.900e+2
0.582, 2.519e-4, 3.862e-2, 2.915e+2
0.585, 2.532e-4, 3.900e-2, 2.930e+2
0.588, 2.546e-4, 3.938e-2, 2.945e+2
0.591, 2.559e-4, 3.976e-2, 2.960e+2
0.594, 2.568e-4, 4.015e-2, 2.975e+2
0.597, 2.571e-4, 4.053e-2, 2.990e+2
0.600, 2.571e-4, 4.092e-2, 3.005e+2
0.603, 2.576e-4, 4.131e-2, 3.020e+2
0.606, 2.577e-4, 4.169e-2, 3.035e+2
0.609, 2.580e-4, 4.208e-2, 3.050e+2
0.612, 2.579e-4, 4.247e-2, 3.065e+2
0.615, 2.579e-4, 4.285e-2, 3.080e+2
0.618, 2.580e-4, 4.324e-2, 3.095e+2
0.621, 2.581e-4, 4.363e-2, 3.110e+2
0.624, 2.582e-4, 4.401e-2, 3.125e+2
0.627, 2.587e-4, 4.440e-2, 3.140e+2
0.630, 2.588e-4, 4.479e-2, 3.155e+2
0.633, 2.591e-4, 4.518e-2, 3.170e+2
0.636, 2.598e-4, 4.557e-2, 3.185e+2
0.639, 2.604e-4, 4.596e-2, 3.200e+2
0.642, 2.610e-4, 4.635e-2, 3.215e+2
0.645, 2.616e-4, 4.674e-2, 3.230e+2
0.648, 2.625e-4, 4.713e-2, 3.245e+2
0.651, 2.637e-4, 4.753e-2, 3.260e+2
0.654, 2.652e-4, 4.793e-2, 3.275e+2
0.657, 2.669e-4, 4.833e-2, 3.290e+2
0.660, 2.689e-4, 4.873e-2, 3.305e+2
0.663, 2.710e-4, 4.913e-2, 3.320e+2
0.666, 2.731e-4, 4.954e-2, 3.335e+2
0.669, 2.752e-4, 4.995e-2, 3.350e+2
0.672, 2.778e-4, 5.037e-2, 3.365e+2
0.675, 2.801e-4, 5.079e-2, 3.380e+2
0.678, 2.824e-4, 5.121e-2, 3.395e+2
0.681, 2.853e-4, 5.164e-2, 3.410e+2
0.684, 2.885e-4, 5.207e-2, 3.425e+2
0.687, 2.913e-4, 5.250e-2, 3.440e+2
0.690, 2.948e-4, 5.294e-2, 3.455e+2
0.693, 2.985e-4, 5.339e-2, 3.470e+2
0.696, 3.019e-4, 5.384e-2, 3.485e+2
0.699, 3.057e-4, 5.430e-2, 3.500e+2
0.702, 3.101e-4, 5.476e-2, 3.515e+2
0.705, 3.149e-4, 5.523e-2, 3.530e+2
0.708, 3.199e-4, 5.571e-2, 3.545e+2
0.711, 3.251e-4, 5.619e-2, 3.560e+2
0.714, 3.306e-4, 5.669e-2, 3.575e+2
0.717, 3.367e-4, 5.719e-2, 3.590e+2
0.720, 3.426e-4, 5.770e-2, 3.605e+2
0.723, 3.497e-4, 5.822e-2, 3.620e+2
0.726, 3.566e-4, 5.875e-2, 3.635e+2
0.729, 3.632e-4, 5.929e-2, 3.650e+2
0.732, 3.702e-4, 5.985e-2, 3.665e+2
0.735, 3.779e-4, 6.041e-2, 3.680e+2
0.738, 3.859e-4, 6.098e-2, 3.695e+2
0.741, 3.948e-4, 6.157e-2, 3.710e+2
0.744, 4.050e-4, 6.217e-2, 3.725e+2
0.747, 4.158e-4, 6.279e-2, 3.740e+2
0.750, 4.275e-4, 6.343e-2, 3.755e+2
0.753, 4.399e-4, 6.408e-2, 3.770e+2
0.756, 4.525e-4, 6.475e-2, 3.785e+2
0.759, 4.650e-4, 6.544e-2, 3.800e+2
0.762, 4.792e-4, 6.615e-2, 3.815e+2
0.765, 4.948e-4, 6.689e-2, 3.830e+2
0.768, 5.136e-4, 6.765e-2, 3.845e+2
0.771, 5.349e-4, 6.844e-2, 3.860e+2
0.774, 5.583e-4, 6.927e-2, 3.875e+2
0.777, 5.843e-4, 7.013e-2, 3.890e+2
0.780, 6.127e-4, 7.103e-2, 3.905e+2
0.783, 6.436e-4, 7.198e-2, 3.920e+2
0.786, 6.773e-4, 7.298e-2, 3.935e+2
0.789, 7.153e-4, 7.404e-2, 3.950e+2
0.792, 7.570e-4, 7.515e-2, 3.965e+2
0.795, 8.021e-4, 7.633e-2, 3.980e+2
0.798, 8.497e-4, 7.758e-2, 3.995e+2
0.799, 7.689e-4, 8.083e-4, 4.010e+2
0.796, 6.325e-4, 1.816e-3, 4.025e+2
0.793, 5.423e-4, 2.672e-3, 4.040e+2
0.790, 4.691e-4, 3.411e-3, 4.055e+2
0.787, 4.057e-4, 4.050e-3, 4.070e+2
0.784, 3.503e-4, 4.602e-3, 4.085e+2
0.781, 3.013e-4, 5.078e-3, 4.100e+2
0.778, 2.583e-4, 5.486e-3, 4.115e+2
0.775, 2.206e-4, 5.835e-3, 4.130e+2
0.772, 1.881e-4, 6.133e-3, 4.145e+2
0.769, 1.595e-4, 6.387e-3, 4.160e+2
0.766, 1.343e-4, 6.600e-3, 4.175e+2
0.763, 1.129e-4, 6.780e-3, 4.190e+2
0.760, 9.368e-5, 6.930e-3, 4.205e+2
0.757, 7.679e-5, 7.053e-3, 4.220e+2
0.754, 6.206e-5, 7.153e-3, 4.235e+2
0.751, 4.956e-5, 7.234e-3, 4.250e+2
0.748, 3.842e-5, 7.297e-3, 4.265e+2
0.745, 2.908e-5, 7.345e-3, 4.280e+2
0.742, 2.071e-5, 7.380e-3, 4.295e+2
0.739, 1.316e-5, 7.404e-3, 4.310e+2
0.736, 6.437e-6, 7.416e-3, 4.325e+2
0.733, 5.760e-7, 7.420e-3, 4.340e+2
0.730, -4.954e-6, 7.415e-3, 4.355e+2
0.727, -9.971e-6, 7.403e-3, 4.370e+2
0.724, -1.436e-5, 7.384e-3, 4.385e+2
0.721, -1.779e-5, 7.359e-3, 4.400e+2
0.718, -2.123e-5, 7.329e-3, 4.415e+2
0.715, -2.357e-5, 7.294e-3, 4.430e+2
0.712, -2.583e-5, 7.256e-3, 4.445e+2
0.709, -2.804e-5, 7.215e-3, 4.460e+2
0.706, -2.971e-5, 7.172e-3, 4.475e+2
0.703, -3.149e-5, 7.125e-3, 4.490e+2
0.700, -3.296e-5, 7.077e-3, 4.505e+2
0.697, -3.404e-5, 7.026e-3, 4.520e+2
0.694, -3.499e-5, 6.974e-3, 4.535e+2
0.691, -3.575e-5, 6.920e-3, 4.550e+2
0.688, -3.614e-5, 6.866e-3, 4.565e+2
0.685, -3.634e-5, 6.812e-3, 4.580e+2
0.682, -3.680e-5, 6.757e-3, 4.595e+2
0.679, -3.729e-5, 6.701e-3, 4.610e+2
0.676, -3.814e-5, 6.645e-3, 4.625e+2
0.673, -3.878e-5, 6.587e-3, 4.640e+2
0.670, -3.941e-5, 6.528e-3, 4.655e+2
0.667, -4.032e-5, 6.468e-3, 4.670e+2
0.664, -4.077e-5, 6.407e-3, 4.685e+2
0.661, -4.140e-5, 6.345e-3, 4.700e+2
0.658, -4.202e-5, 6.283e-3, 4.715e+2
0.655, -4.215e-5, 6.219e-3, 4.730e+2
0.652, -4.177e-5, 6.157e-3, 4.745e+2
0.649, -4.147e-5, 6.095e-3, 4.760e+2
0.646, -4.161e-5, 6.032e-3, 4.775e+2
0.643, -4.196e-5, 5.969e-3, 4.790e+2
0.640, -4.273e-5, 5.905e-3, 4.805e+2
0.637, -4.352e-5, 5.840e-3, 4.820e+2
0.634, -4.342e-5, 5.775e-3, 4.835e+2
0.631, -4.320e-5, 5.710e-3, 4.850e+2
0.628, -4.337e-5, 5.646e-3, 4.865e+2
0.625, -4.411e-5, 5.580e-3, 4.880e+2
0.622, -4.463e-5, 5.513e-3, 4.895e+2
0.619, -4.488e-5, 5.446e-3, 4.910e+2
0.616, -4.530e-5, 5.378e-3, 4.925e+2
0.613, -4.548e-5, 5.310e-3, 4.940e+2
0.610, -4.569e-5, 5.242e-3, 4.955e+2
0.607, -4.576e-5, 5.173e-3, 4.970e+2
0.604, -4.532e-5, 5.105e-3, 4.985e+2
0.601, -4.513e-5, 5.037e-3, 5.000e+2
0.598, -4.547e-5, 4.969e-3, 5.015e+2
0.595, -4.598e-5, 4.901e-3, 5.030e+2
0.592, -4.701e-5, 4.830e-3, 5.045e+2
0.589, -4.762e-5, 4.759e-3, 5.060e+2
0.586, -4.852e-5, 4.687e-3, 5.075e+2
0.583, -4.896e-5, 4.614e-3, 5.090e+2
0.580, -5.000e-5, 4.539e-3, 5.105e+2
0.577, -5.112e-5, 4.464e-3, 5.120e+2
0.574, -5.163e-5, 4.386e-3, 5.135e+2
0.571, -5.299e-5, 4.307e-3, 5.150e+2
0.568, -5.284e-5, 4.228e-3, 5.165e+2
0.565, -5.357e-5, 4.148e-3, 5.180e+2
0.562, -5.505e-5, 4.066e-3, 5.195e+2
0.559, -5.587e-5, 3.983e-3, 5.210e+2
0.556, -5.721e-5, 3.898e-3, 5.225e+2
0.553, -5.844e-5, 3.811e-3, 5.240e+2
0.550, -5.904e-5, 3.722e-3, 5.255e+2
0.547, -5.902e-5, 3.634e-3, 5.270e+2
0.544, -6.009e-5, 3.544e-3, 5.285e+2
0.541, -6.140e-5, 3.453e-3, 5.300e+2
0.538, -6.092e-5, 3.361e-3, 5.315e+2
0.535, -6.099e-5, 3.270e-3, 5.330e+2
0.532, -6.127e-5, 3.178e-3, 5.345e+2
0.529, -6.208e-5, 3.086e-3, 5.360e+2
0.526, -6.327e-5, 2.991e-3, 5.375e+2
0.523, -6.437e-5, 2.895e-3, 5.390e+2
0.520, -6.434e-5, 2.799e-3, 5.405e+2
0.517, -6.495e-5, 2.702e-3, 5.420e+2
0.514, -6.608e-5, 2.603e-3, 5.435e+2
0.511, -6.713e-5, 2.503e-3, 5.450e+2
0.508, -6.754e-5, 2.402e-3, 5.465e+2
0.505, -6.835e-5, 2.300e-3, 5.480e+2
0.502, -6.969e-5, 2.196e-3, 5.495e+2
0.499, -6.966e-5, 2.091e-3, 5.510e+2
0.496, -6.996e-5, 1.986e-3, 5.525e+2
0.493, -7.027e-5, 1.881e-3, 5.540e+2
0.490, -7.003e-5, 1.776e-3, 5.555e+2
0.487, -7.019e-5, 1.670e-3, 5.570e+2
0.484, -7.019e-5, 1.565e-3, 5.585e+2
0.481, -6.939e-5, 1.461e-3, 5.600e+2
0.478, -6.955e-5, 1.357e-3, 5.615e+2
0.475, -6.938e-5, 1.253e-3, 5.630e+2
0.472, -6.953e-5, 1.148e-3, 5.645e+2
0.469, -7.004e-5, 1.043e-3, 5.660e+2
0.466, -6.985e-5, 9.382e-4, 5.675e+2
0.463, -7.001e-5, 8.334e-4, 5.690e+2
0.460, -7.021e-5, 7.284e-4, 5.705e+2
0.457, -7.007e-5, 6.233e-4, 5.720e+2
0.454, -7.025e-5, 5.180e-4, 5.735e+2
0.451, -7.007e-5, 4.127e-4, 5.750e+2
0.448, -7.022e-5, 3.071e-4, 5.765e+2
0.445, -7.036e-5, 2.015e-4, 5.780e+2
0.442, -7.070e-5, 9.557e-5, 5.795e+2
0.439, -7.098e-5, -1.080e-5, 5.810e+2
0.436, -7.069e-5, -1.167e-4, 5.825e+2
0.433, -7.102e-5, -2.228e-4, 5.840e+2
0.430, -7.038e-5, -3.288e-4, 5.855e+2
0.427, -7.031e-5, -4.343e-4, 5.870e+2
0.424, -7.098e-5, -5.404e-4, 5.885e+2
0.421, -7.108e-5, -6.471e-4, 5.900e+2
0.418, -7.156e-5, -7.543e-4, 5.915e+2
0.415, -7.215e-5, -8.621e-4, 5.930e+2
0.412, -7.247e-5, -9.705e-4, 5.945e+2
0.409, -7.317e-5, -1.080e-3, 5.960e+2
0.406, -7.204e-5, -1.189e-3, 5.975e+2
0.403, -7.240e-5, -1.297e-3, 5.990e+2
0.400, -7.354e-5, -1.407e-3, 6.005e+2
0.397, -7.490e-5, -1.519e-3, 6.020e+2
0.394, -7.426e-5, -1.631e-3, 6.035e+2
0.391, -7.364e-5, -1.741e-3, 6.050e+2
0.388, -7.396e-5, -1.852e-3, 6.065e+2
0.385, -7.479e-5, -1.963e-3, 6.080e+2
0.382, -7.506e-5, -2.076e-3, 6.095e+2
0.379, -7.522e-5, -2.189e-3, 6.110e+2
0.376, -7.566e-5, -2.302e-3, 6.125e+2
0.373, -7.597e-5, -2.416e-3, 6.140e+2
0.370, -7.611e-5, -2.530e-3, 6.155e+2
0.367, -7.711e-5, -2.645e-3, 6.170e+2
0.364, -7.791e-5, -2.762e-3, 6.185e+2
0.361, -7.909e-5, -2.880e-3, 6.200e+2
0.358, -8.020e-5, -2.999e-3, 6.215e+2
0.355, -8.131e-5, -3.121e-3, 6.230e+2
0.352, -8.259e-5, -3.245e-3, 6.245e+2
0.349, -8.333e-5, -3.370e-3, 6.260e+2
0.346, -8.406e-5, -3.495e-3, 6.275e+2
0.343, -8.486e-5, -3.622e-3, 6.290e+2
0.340, -8.436e-5, -3.749e-3, 6.305e+2
0.337, -8.518e-5, -3.876e-3, 6.320e+2
0.334, -8.654e-5, -4.005e-3, 6.335e+2
0.331, -8.805e-5, -4.137e-3, 6.350e+2
0.328, -8.972e-5, -4.271e-3, 6.365e+2
0.325, -9.116e-5, -4.407e-3, 6.380e+2
0.322, -9.256e-5, -4.545e-3, 6.395e+2
0.319, -9.434e-5, -4.685e-3, 6.410e+2
0.316, -9.536e-5, -4.828e-3, 6.425e+2
0.313, -9.626e-5, -4.972e-3, 6.440e+2
0.310, -9.732e-5, -5.117e-3, 6.455e+2
0.307, -9.887e-5, -5.265e-3, 6.470e+2
0.304, -9.995e-5, -5.414e-3, 6.485e+2
0.301, -1.018e-4, -5.566e-3, 6.500e+2
0.298, -1.033e-4, -5.720e-3, 6.515e+2
0.295, -1.046e-4, -5.877e-3, 6.530e+2
0.292, -1.055e-4, -6.034e-3, 6.545e+2
0.289, -1.066e-4, -6.194e-3, 6.560e+2
0.286, -1.082e-4, -6.355e-3, 6.575e+2
0.283, -1.103e-4, -6.520e-3, 6.590e+2
0.280, -1.113e-4, -6.686e-3, 6.605e+2
0.277, -1.126e-4, -6.855e-3, 6.620e+2
0.274, -1.146e-4, -7.025e-3, 6.635e+2
0.271, -1.170e-4, -7.200e-3, 6.650e+2
0.268, -1.196e-4, -7.378e-3, 6.665e+2
0.265, -1.221e-4, -7.560e-3, 6.680e+2
0.262, -1.250e-4, -7.746e-3, 6.695e+2
0.259, -1.277e-4, -7.936e-3, 6.710e+2
0.256, -1.306e-4, -8.131e-3, 6.725e+2
0.253, -1.329e-4, -8.329e-3, 6.740e+2
0.250, -1.357e-4, -8.531e-3, 6.755e+2
0.247, -1.385e-4, -8.737e-3, 6.770e+2
0.244, -1.402e-4, -8.947e-3, 6.785e+2
0.241, -1.418e-4, -9.158e-3, 6.800e+2
0.238, -1.440e-4, -9.373e-3, 6.815e+2
0.235, -1.468e-4, -9.592e-3, 6.830e+2
0.232, -1.502e-4, -9.816e-3, 6.845e+2
0.229, -1.535e-4, -1.004e-2, 6.860e+2
0.226, -1.569e-4, -1.028e-2, 6.875e+2
0.223, -1.608e-4, -1.052e-2, 6.890e+2
0.220, -1.638e-4, -1.076e-2, 6.905e+2
0.217, -1.663e-4, -1.101e-2, 6.920e+2
0.214, -1.689e-4, -1.126e-2, 6.935e+2
0.211, -1.722e-4, -1.152e-2, 6.950e+2
0.208, -1.755e-4, -1.178e-2, 6.965e+2
0.205, -1.798e-4, -1.205e-2, 6.980e+2
0.202, -1.835e-4, -1.232e-2, 6.995e+2
0.199, -1.873e-4, -1.260e-2, 7.010e+2
0.196, -1.917e-4, -1.289e-2, 7.025e+2
0.193, -1.949e-4, -1.318e-2, 7.040e+2
0.190, -1.981e-4, -1.347e-2, 7.055e+2
0.187, -2.010e-4, -1.377e-2, 7.070e+2
0.184, -2.045e-4, -1.408e-2, 7.085e+2
0.181, -2.086e-4, -1.439e-2, 7.100e+2
0.178, -2.135e-4, -1.470e-2, 7.115e+2
0.175, -2.188e-4, -1.503e-2, 7.130e+2
0.172, -2.242e-4, -1.536e-2, 7.145e+2
0.169, -2.291e-4, -1.570e-2, 7.160e+2
0.166, -2.345e-4, -1.605e-2, 7.175e+2
0.163, -2.397e-4, -1.641e-2, 7.190e+2
0.160, -2.459e-4, -1.678e-2, 7.205e+2
0.157, -2.501e-4, -1.715e-2, 7.220e+2
0.154, -2.556e-4, -1.753e-2, 7.235e+2
0.151, -2.609e-4, -1.792e-2, 7.250e+2
0.148, -2.668e-4, -1.832e-2, 7.265e+2
0.145, -2.723e-4, -1.872e-2, 7.280e+2
0.142, -2.777e-4, -1.914e-2, 7.295e+2
0.139, -2.840e-4, -1.956e-2, 7.310e+2
0.136, -2.891e-4, -1.999e-2, 7.325e+2
0.133, -2.950e-4, -2.043e-2, 7.340e+2
0.130, -3.006e-4, -2.088e-2, 7.355e+2
0.127, -3.062e-4, -2.133e-2, 7.370e+2
0.124, -3.111e-4, -2.180e-2, 7.385e+2
0.121, -3.139e-4, -2.227e-2, 7.400e+2
0.118, -3.175e-4, -2.274e-2, 7.415e+2
0.115, -3.222e-4, -2.322e-2, 7.430e+2
0.112, -3.272e-4, -2.371e-2, 7.445e+2
0.109, -3.324e-4, -2.421e-2, 7.460e+2
0.106, -3.378e-4, -2.471e-2, 7.475e+2
0.103, -3.411e-4, -2.522e-2, 7.490e+2
0.100, -3.459e-4, -2.574e-2, 7.505e+2
0.097, -3.502e-4, -2.626e-2, 7.520e+2
0.094, -3.562e-4, -2.679e-2, 7.535e+2
0.091, -3.606e-4, -2.733e-2, 7.550e+2
0.088, -3.637e-4, -2.787e-2, 7.565e+2
0.085, -3.671e-4, -2.842e-2, 7.580e+2
0.082, -3.719e-4, -2.898e-2, 7.595e+2
0.079, -3.768e-4, -2.954e-2, 7.610e+2
0.076, -3.811e-4, -3.011e-2, 7.625e+2
0.073, -3.843e-4, -3.069e-2, 7.640e+2
0.070, -3.876e-4, -3.126e-2, 7.655e+2
0.067, -3.907e-4, -3.185e-2, 7.670e+2
0.064, -3.945e-4, -3.244e-2, 7.685e+2
0.061, -3.998e-4, -3.304e-2, 7.700e+2
0.058, -4.029e-4, -3.364e-2, 7.715e+2
0.055, -4.061e-4, -3.425e-2, 7.730e+2
0.052, -4.099e-4, -3.486e-2, 7.745e+2
0.049, -4.139e-4, -3.548e-2, 7.760e+2
0.046, -4.180e-4, -3.610e-2, 7.775e+2
0.043, -4.222e-4, -3.673e-2, 7.790e+2
0.040, -4.269e-4, -3.737e-2, 7.805e+2
0.037, -4.313e-4, -3.802e-2, 7.820e+2
0.034, -4.352e-4, -3.867e-2, 7.835e+2
0.031, -4.394e-4, -3.933e-2, 7.850e+2
0.028, -4.437e-4, -3.999e-2, 7.865e+2
0.025, -4.480e-4, -4.066e-2, 7.880e+2
0.022, -4.527e-4, -4.134e-2, 7.895e+2
0.019, -4.581e-4, -4.202e-2, 7.910e+2
0.016, -4.634e-4, -4.271e-2, 7.925e+2
0.013, -4.689e-4, -4.341e-2, 7.940e+2
0.010, -4.748e-4, -4.412e-2, 7.955e+2
0.007, -4.810e-4, -4.484e-2, 7.970e+2
0.004, -4.866e-4, -4.557e-2, 7.985e+2
0.001, -4.920e-4, -4.630e-2, 8.000e+2
0.002, -3.299e-4, -5.849e-4, 8.015e+2
0.005, -2.474e-4, -9.905e-4, 8.030e+2
0.008, -2.016e-4, -1.313e-3, 8.045e+2
0.011, -1.682e-4, -1.581e-3, 8.060e+2
0.014, -1.440e-4, -1.809e-3, 8.075e+2
0.017, -1.225e-4, -2.003e-3, 8.090e+2
0.020, -1.023e-4, -2.166e-3, 8.105e+2
0.023, -8.614e-5, -2.303e-3, 8.120e+2
0.026, -7.124e-5, -2.417e-3, 8.135e+2
0.029, -5.518e-5, -2.508e-3, 8.150e+2
0.032, -4.187e-5, -2.577e-3, 8.165e+2
0.035, -2.910e-5, -2.627e-3, 8.180e+2
0.038, -1.833e-5, -2.659e-3, 8.195e+2
0.041, -8.872e-6, -2.677e-3, 8.210e+2
0.044, -1.440e-6, -2.683e-3, 8.225e+2
0.047, 6.936e-6, -2.677e-3, 8.240e+2
0.050, 1.414e-5, -2.660e-3, 8.255e+2
0.053, 2.075e-5, -2.632e-3, 8.270e+2
0.056, 2.580e-5, -2.596e-3, 8.285e+2
0.059, 3.083e-5, -2.552e-3, 8.300e+2
0.062, 3.745e-5, -2.499e-3, 8.315e+2
0.065, 4.288e-5, -2.437e-3, 8.330e+2
0.068, 4.756e-5, -2.368e-3, 8.345e+2
0.071, 5.244e-5, -2.292e-3, 8.360e+2
0.074, 5.630e-5, -2.210e-3, 8.375e+2
0.077, 5.983e-5, -2.122e-3, 8.390e+2
0.080, 6.330e-5, -2.028e-3, 8.405e+2
0.083, 6.722e-5, -1.929e-3, 8.420e+2
0.086, 7.088e-5, -1.825e-3, 8.435e+2
0.089, 7.423e-5, -1.715e-3, 8.450e+2
0.092, 7.809e-5, -1.600e-3, 8.465e+2
0.095, 8.143e-5, -1.480e-3, 8.480e+2
0.098, 8.460e-5, -1.355e-3, 8.495e+2
0.101, 8.738e-5, -1.225e-3, 8.510e+2
0.104, 9.067e-5, -1.090e-3, 8.525e+2
0.107, 9.337e-5, -9.516e-4, 8.540e+2
0.110, 9.638e-5, -8.083e-4, 8.555e+2
0.113, 9.993e-5, -6.603e-4, 8.570e+2
0.116, 1.028e-4, -5.078e-4, 8.585e+2
0.119, 1.056e-4, -3.508e-4, 8.600e+2
0.122, 1.085e-4, -1.895e-4, 8.615e+2
0.125, 1.109e-4, -2.436e-5, 8.630e+2
0.128, 1.133e-4, 1.445e-4, 8.645e+2
0.131, 1.166e-4, 3.178e-4, 8.660e+2
0.134, 1.194e-4, 4.955e-4, 8.675e+2
0.137, 1.225e-4, 6.777e-4, 8.690e+2
0.140, 1.254e-4, 8.643e-4, 8.705e+2
0.143, 1.281e-4, 1.055e-3, 8.720e+2
0.146, 1.308e-4, 1.249e-3, 8.735e+2
0.149, 1.331e-4, 1.448e-3, 8.750e+2
0.152, 1.353e-4, 1.650e-3, 8.765e+2
0.155, 1.376e-4, 1.855e-3, 8.780e+2
0.158, 1.398e-4, 2.064e-3, 8.795e+2
0.161, 1.418e-4, 2.276e-3, 8.810e+2
0.164, 1.437e-4, 2.490e-3, 8.825e+2
0.167, 1.452e-4, 2.707e-3, 8.840e+2
0.170, 1.466e-4, 2.926e-3, 8.855e+2
0.173, 1.483e-4, 3.148e-3, 8.870e+2
0.176, 1.496e-4, 3.372e-3, 8.885e+2
0.179, 1.509e-4, 3.598e-3, 8.900e+2
0.182, 1.517e-4, 3.825e-3, 8.915e+2
0.185, 1.528e-4, 4.054e-3, 8.930e+2
0.188, 1.540e-4, 4.284e-3, 8.945e+2
0.191, 1.546e-4, 4.516e-3, 8.960e+2
0.194, 1.550e-4, 4.748e-3, 8.975e+2
0.197, 1.555e-4, 4.981e-3, 8.990e+2
0.200, 1.561e-4, 5.214e-3, 9.005e+2
0.203, 1.566e-4, 5.449e-3, 9.020e+2
0.206, 1.569e-4, 5.684e-3, 9.035e+2
0.209, 1.575e-4, 5.921e-3, 9.050e+2
0.212, 1.580e-4, 6.157e-3, 9.065e+2
0.215, 1.583e-4, 6.394e-3, 9.080e+2
0.218, 1.584e-4, 6.632e-3, 9.095e+2
0.221, 1.584e-4, 6.870e-3, 9.110e+2
0.224, 1.589e-4, 7.108e-3, 9.125e+2
0.227, 1.590e-4, 7.346e-3, 9.140e+2
0.230, 1.598e-4, 7.586e-3, 9.155e+2
0.233, 1.596e-4, 7.826e-3, 9.170e+2
0.236, 1.594e-4, 8.065e-3, 9.185e+2
0.239, 1.596e-4, 8.304e-3, 9.200e+2
0.242, 1.597e-4, 8.543e-3, 9.215e+2
0.245, 1.599e-4, 8.783e-3, 9.230e+2
0.248, 1.600e-4, 9.023e-3, 9.245e+2
0.251, 1.602e-4, 9.263e-3, 9.260e+2
0.254, 1.603e-4, 9.503e-3, 9.275e+2
0.257, 1.604e-4, 9.744e-3, 9.290e+2
0.260, 1.604e-4, 9.984e-3, 9.305e+2
0.263, 1.606e-4, 1.023e-2, 9.320e+2
0.266, 1.604e-4, 1.047e-2, 9.335e+2
0.269, 1.605e-4, 1.071e-2, 9.350e+2
0.272, 1.607e-4, 1.095e-2, 9.365e+2
0.275, 1.615e-4, 1.119e-2, 9.380e+2
0.278, 1.615e-4, 1.143e-2, 9.395e+2
0.281, 1.610e-4, 1.167e-2, 9.410e+2
0.284, 1.613e-4, 1.192e-2, 9.425e+2
0.287, 1.608e-4, 1.216e-2, 9.440e+2
0.290, 1.605e-4, 1.240e-2, 9.455e+2
0.293, 1.606e-4, 1.264e-2, 9.470e+2
0.296, 1.609e-4, 1.288e-2, 9.485e+2
0.299, 1.611e-4, 1.312e-2, 9.500e+2
0.302, 1.611e-4, 1.336e-2, 9.515e+2
0.305, 1.609e-4, 1.360e-2, 9.530e+2
0.308, 1.613e-4, 1.385e-2, 9.545e+2
0.311, 1.610e-4, 1.409e-2, 9.560e+2
0.314, 1.610e-4, 1.433e-2, 9.575e+2
0.317, 1.606e-4, 1.457e-2, 9.590e+2
0.320, 1.601e-4, 1.481e-2, 9.605e+2
0.323, 1.599e-4, 1.505e-2, 9.620e+2
0.326, 1.600e-4, 1.529e-2, 9.635e+2
0.329, 1.601e-4, 1.553e-2, 9.650e+2
0.332, 1.594e-4, 1.577e-2, 9.665e+2
0.335, 1.591e-4, 1.601e-2, 9.680e+2
0.338, 1.585e-4, 1.625e-2, 9.695e+2
0.341, 1.579e-4, 1.648e-2, 9.710e+2
0.344, 1.577e-4, 1.672e-2, 9.725e+2
0.347, 1.576e-4, 1.696e-2, 9.740e+2
0.350, 1.574e-4, 1.719e-2, 9.755e+2
0.353, 1.573e-4, 1.743e-2, 9.770e+2
0.356, 1.570e-4, 1.767e-2, 9.785e+2
0.359, 1.565e-4, 1.790e-2, 9.800e+2
0.362, 1.562e-4, 1.813e-2, 9.815e+2
0.365, 1.559e-4, 1.837e-2, 9.830e+2
0.368, 1.555e-4, 1.860e-2, 9.845e+2
0.371, 1.552e-4, 1.884e-2, 9.860e+2
0.374, 1.547e-4, 1.907e-2, 9.875e+2
0.377, 1.543e-4, 1.930e-2, 9.890e+2
0.380, 1.540e-4, 1.953e-2, 9.905e+2
0.383, 1.536e-4, 1.976e-2, 9.920e+2
0.386, 1.535e-4, 1.999e-2, 9.935e+2
0.389, 1.532e-4, 2.022e-2, 9.950e+2
0.392, 1.535e-4, 2.045e-2, 9.965e+2
0.395, 1.530e-4, 2.068e-2, 9.980e+2
0.398, 1.527e-4, 2.091e-2, 9.995e+2
0.401, 1.523e-4, 2.114e-2, 1.001e+3
0.404, 1.526e-4, 2.137e-2, 1.003e+3
0.407, 1.528e-4, 2.160e-2, 1.004e+3
0.410, 1.535e-4, 2.183e-2, 1.006e+3
0.413, 1.521e-4, 2.205e-2, 1.007e+3
0.416, 1.519e-4, 2.228e-2, 1.009e+3
0.419, 1.521e-4, 2.251e-2, 1.010e+3
0.422, 1.524e-4, 2.274e-2, 1.012e+3
0.425, 1.530e-4, 2.297e-2, 1.013e+3
0.428, 1.533e-4, 2.320e-2, 1.015e+3
0.431, 1.541e-4, 2.343e-2, 1.016e+3
0.434, 1.537e-4, 2.366e-2, 1.018e+3
0.437, 1.540e-4, 2.389e-2, 1.019e+3
0.440, 1.541e-4, 2.412e-2, 1.021e+3
0.443, 1.549e-4, 2.435e-2, 1.022e+3
0.446, 1.554e-4, 2.459e-2, 1.024e+3
0.449, 1.562e-4, 2.482e-2, 1.025e+3
0.452, 1.568e-4, 2.505e-2, 1.027e+3
0.455, 1.575e-4, 2.529e-2, 1.028e+3
0.458, 1.582e-4, 2.553e-2, 1.030e+3
0.461, 1.592e-4, 2.577e-2, 1.031e+3
0.464, 1.604e-4, 2.601e-2, 1.033e+3
0.467, 1.618e-4, 2.625e-2, 1.034e+3
0.470, 1.628e-4, 2.649e-2, 1.036e+3
0.473, 1.642e-4, 2.674e-2, 1.037e+3
0.476, 1.657e-4, 2.698e-2, 1.039e+3
0.479, 1.669e-4, 2.723e-2, 1.040e+3
0.482, 1.683e-4, 2.749e-2, 1.042e+3
0.485, 1.698e-4, 2.774e-2, 1.043e+3
0.488, 1.717e-4, 2.800e-2, 1.045e+3
0.491, 1.732e-4, 2.826e-2, 1.046e+3
0.494, 1.748e-4, 2.852e-2, 1.048e+3
0.497, 1.769e-4, 2.878e-2, 1.049e+3
0.500, 1.789e-4, 2.905e-2, 1.051e+3
0.503, 1.809e-4, 2.932e-2, 1.052e+3
0.506, 1.827e-4, 2.959e-2, 1.054e+3
0.509, 1.847e-4, 2.987e-2, 1.055e+3
0.512, 1.874e-4, 3.015e-2, 1.057e+3
0.515, 1.898e-4, 3.043e-2, 1.058e+3
0.518, 1.921e-4, 3.072e-2, 1.060e+3
0.521, 1.946e-4, 3.101e-2, 1.061e+3
0.524, 1.966e-4, 3.130e-2, 1.063e+3
0.527, 1.992e-4, 3.160e-2, 1.064e+3
0.530, 2.016e-4, 3.190e-2, 1.066e+3
0.533, 2.043e-4, 3.221e-2, 1.067e+3
0.536, 2.070e-4, 3.252e-2, 1.069e+3
0.539, 2.094e-4, 3.283e-2, 1.070e+3
0.542, 2.116e-4, 3.314e-2, 1.072e+3
0.545, 2.146e-4, 3.347e-2, 1.073e+3
0.548, 2.175e-4, 3.379e-2, 1.075e+3
0.551, 2.203e-4, 3.412e-2, 1.076e+3
0.554, 2.228e-4, 3.445e-2, 1.078e+3
0.557, 2.251e-4, 3.479e-2, 1.079e+3
0.560, 2.273e-4, 3.513e-2, 1.081e+3
0.563, 2.295e-4, 3.547e-2, 1.082e+3
0.566, 2.318e-4, 3.582e-2, 1.084e+3
0.569, 2.344e-4, 3.617e-2, 1.085e+3
0.572, 2.368e-4, 3.652e-2, 1.087e+3
0.575, 2.374e-4, 3.688e-2, 1.088e+3
0.578, 2.386e-4, 3.723e-2, 1.090e+3
0.581, 2.399e-4, 3.759e-2, 1.091e+3
0.584, 2.410e-4, 3.796e-2, 1.093e+3
0.587, 2.419e-4, 3.832e-2, 1.094e+3
0.590, 2.427e-4, 3.868e-2, 1.096e+3
0.593, 2.432e-4, 3.905e-2, 1.097e+3
0.596, 2.436e-4, 3.941e-2, 1.099e+3
0.599, 2.437e-4, 3.978e-2, 1.100e+3
0.602, 2.435e-4, 4.014e-2, 1.102e+3
0.605, 2.434e-4, 4.051e-2, 1.103e+3
0.608, 2.436e-4, 4.087e-2, 1.105e+3
0.611, 2.440e-4, 4.124e-2, 1.106e+3
0.614, 2.446e-4, 4.161e-2, 1.108e+3
0.617, 2.451e-4, 4.197e-2, 1.109e+3
0.620, 2.454e-4, 4.234e-2, 1.111e+3
0.623, 2.457e-4, 4.271e-2, 1.112e+3
0.626, 2.460e-4, 4.308e-2, 1.114e+3
0.629, 2.464e-4, 4.345e-2, 1.115e+3
0.632, 2.474e-4, 4.382e-2, 1.117e+3
0.635, 2.492e-4, 4.419e-2, 1.118e+3
0.638, 2.504e-4, 4.457e-2, 1.120e+3
0.641, 2.512e-4, 4.494e-2, 1.121e+3
0.644, 2.522e-4, 4.532e-2, 1.123e+3
0.647, 2.538e-4, 4.570e-2, 1.124e+3
0.650, 2.552e-4, 4.608e-2, 1.126e+3
0.653, 2.569e-4, 4.647e-2, 1.127e+3
0.656, 2.588e-4, 4.685e-2, 1.129e+3
0.659, 2.610e-4, 4.724e-2, 1.130e+3
0.662, 2.631e-4, 4.764e-2, 1.132e+3
0.665, 2.652e-4, 4.803e-2, 1.133e+3
0.668, 2.678e-4, 4.843e-2, 1.135e+3
0.671, 2.703e-4, 4.884e-2, 1.136e+3
0.674, 2.735e-4, 4.925e-2, 1.138e+3
0.677, 2.753e-4, 4.966e-2, 1.139e+3
0.680, 2.783e-4, 5.007e-2, 1.141e+3
0.683, 2.812e-4, 5.050e-2, 1.142e+3
0.686, 2.846e-4, 5.092e-2, 1.144e+3
0.689, 2.888e-4, 5.135e-2, 1.145e+3
0.692, 2.928e-4, 5.179e-2, 1.147e+3
0.695, 2.963e-4, 5.223e-2, 1.148e+3
0.698, 3.006e-4, 5.268e-2, 1.150e+3
0.701, 3.049e-4, 5.314e-2, 1.151e+3
0.704, 3.097e-4, 5.360e-2, 1.153e+3
0.707, 3.144e-4, 5.407e-2, 1.154e+3
0.710, 3.193e-4, 5.454e-2, 1.156e+3
0.713, 3.243e-4, 5.503e-2, 1.157e+3
0.716, 3.298e-4, 5.552e-2, 1.159e+3
0.719, 3.353e-4, 5.602e-2, 1.160e+3
0.722, 3.415e-4, 5.653e-2, 1.162e+3
0.725, 3.477e-4, 5.705e-2, 1.163e+3
0.728, 3.547e-4, 5.757e-2, 1.165e+3
0.731, 3.628e-4, 5.811e-2, 1.166e+3
0.734, 3.712e-4, 5.867e-2, 1.168e+3
0.737, 3.802e-4, 5.923e-2, 1.169e+3
0.740, 3.896e-4, 5.981e-2, 1.171e+3
0.743, 3.997e-4, 6.041e-2, 1.172e+3
0.746, 4.103e-4, 6.102e-2, 1.174e+3
0.749, 4.222e-4, 6.164e-2, 1.175e+3
0.752, 4.344e-4, 6.229e-2, 1.177e+3
0.755, 4.467e-4, 6.295e-2, 1.178e+3
0.758, 4.614e-4, 6.364e-2, 1.180e+3
0.761, 4.781e-4, 6.435e-2, 1.181e+3
0.764, 4.960e-4, 6.508e-2, 1.183e+3
0.767, 5.160e-4, 6.585e-2, 1.184e+3
0.770, 5.378e-4, 6.664e-2, 1.186e+3
0.773, 5.613e-4, 6.747e-2, 1.187e+3
0.776, 5.876e-4, 6.834e-2, 1.189e+3
0.779, 6.166e-4, 6.925e-2, 1.190e+3
0.782, 6.486e-4, 7.021e-2, 1.192e+3
0.785, 6.838e-4, 7.121e-2, 1.193e+3
0.788, 7.224e-4, 7.228e-2, 1.195e+3
0.791, 7.642e-4, 7.340e-2, 1.196e+3
0.794, 8.094e-4, 7.459e-2, 1.198e+3
0.797, 8.585e-4, 7.586e-2, 1.199e+3
0.800, 8.759e-4, 4.379e-4, 1.201e+3
0.797, 6.982e-4, 1.557e-3, 1.202e+3
0.794, 5.959e-4, 2.499e-3, 1.204e+3
0.791, 5.132e-4, 3.309e-3, 1.205e+3
0.788, 4.431e-4, 4.007e-3, 1.207e+3
0.785, 3.824e-4, 4.610e-3, 1.208e+3
0.782, 3.292e-4, 5.130e-3, 1.210e+3
0.779, 2.818e-4, 5.576e-3, 1.211e+3
0.776, 2.401e-4, 5.956e-3, 1.213e+3
0.773, 2.041e-4, 6.279e-3, 1.214e+3
0.770, 1.725e-4, 6.553e-3, 1.216e+3
0.767, 1.446e-4, 6.784e-3, 1.217e+3
0.764, 1.205e-4, 6.977e-3, 1.219e+3
0.761, 9.917e-5, 7.136e-3, 1.220e+3
0.758, 8.052e-5, 7.266e-3, 1.222e+3
0.755, 6.410e-5, 7.370e-3, 1.223e+3
0.752, 5.018e-5, 7.451e-3, 1.225e+3
0.749, 3.769e-5, 7.514e-3, 1.226e+3
0.746, 2.690e-5, 7.560e-3, 1.228e+3
0.743, 1.749e-5, 7.590e-3, 1.229e+3
0.740, 9.007e-6, 7.608e-3, 1.231e+3
0.737, 1.560e-6, 7.615e-3, 1.232e+3
0.734, -4.585e-6, 7.611e-3, 1.234e+3
0.731, -9.971e-6, 7.598e-3, 1.235e+3
0.728, -1.493e-5, 7.578e-3, 1.237e+3
0.725, -1.927e-5, 7.551e-3, 1.238e+3
0.722, -2.335e-5, 7.518e-3, 1.240e+3
0.719, -2.651e-5, 7.480e-3, 1.241e+3
0.716, -2.983e-5, 7.437e-3, 1.243e+3
0.713, -3.234e-5, 7.390e-3, 1.244e+3
0.710, -3.447e-5, 7.339e-3, 1.246e+3
0.707, -3.614e-5, 7.285e-3, 1.247e+3
0.704, -3.792e-5, 7.229e-3, 1.249e+3
0.701, -3.968e-5, 7.170e-3, 1.250e+3
0.698, -4.128e-5, 7.109e-3, 1.252e+3
0.695, -4.280e-5, 7.046e-3, 1.253e+3
0.692, -4.439e-5, 6.980e-3, 1.255e+3
0.689, -4.629e-5, 6.912e-3, 1.256e+3
0.686, -4.629e-5, 6.843e-3, 1.258e+3
0.683, -4.729e-5, 6.773e-3, 1.259e+3
0.680, -4.836e-5, 6.701e-3, 1.261e+3
0.677, -5.015e-5, 6.626e-3, 1.262e+3
0.674, -5.138e-5, 6.550e-3, 1.264e+3
0.671, -5.214e-5, 6.472e-3, 1.265e+3
0.668, -5.239e-5, 6.394e-3, 1.267e+3
0.665, -5.273e-5, 6.315e-3, 1.268e+3
0.662, -5.230e-5, 6.236e-3, 1.270e+3
0.659, -5.230e-5, 6.157e-3, 1.271e+3
0.656, -5.248e-5, 6.078e-3, 1.273e+3
0.653, -5.177e-5, 6.001e-3, 1.274e+3
0.650, -5.227e-5, 5.922e-3, 1.276e+3
0.647, -5.307e-5, 5.843e-3, 1.277e+3
0.644, -5.376e-5, 5.763e-3, 1.279e+3
0.641, -5.440e-5, 5.682e-3, 1.280e+3
0.638, -5.447e-5, 5.600e-3, 1.282e+3
0.635, -5.440e-5, 5.519e-3, 1.283e+3
0.632, -5.404e-5, 5.437e-3, 1.285e+3
0.629, -5.372e-5, 5.356e-3, 1.286e+3
0.626, -5.378e-5, 5.276e-3, 1.288e+3
0.623, -5.356e-5, 5.196e-3, 1.289e+3
0.620, -5.353e-5, 5.115e-3, 1.291e+3
0.617, -5.349e-5, 5.035e-3, 1.292e+3
0.614, -5.364e-5, 4.955e-3, 1.294e+3
0.611, -5.350e-5, 4.874e-3, 1.295e+3
0.608, -5.397e-5, 4.793e-3, 1.297e+3
0.605, -5.431e-5, 4.712e-3, 1.298e+3
0.602, -5.499e-5, 4.630e-3, 1.300e+3
0.599, -5.597e-5, 4.546e-3, 1.301e+3
0.596, -5.698e-5, 4.462e-3, 1.303e+3
0.593, -5.762e-5, 4.376e-3, 1.304e+3
0.590, -5.780e-5, 4.289e-3, 1.306e+3
0.587, -5.743e-5, 4.203e-3, 1.307e+3
0.584, -5.737e-5, 4.117e-3, 1.309e+3
0.581, -5.778e-5, 4.030e-3, 1.310e+3
0.578, -5.859e-5, 3.943e-3, 1.312e+3
0.575, -5.981e-5, 3.854e-3, 1.313e+3
0.572, -6.061e-5, 3.763e-3, 1.315e+3
0.569, -6.243e-5, 3.670e-3, 1.316e+3
0.566, -6.217e-5, 3.577e-3, 1.318e+3
0.563, -6.188e-5, 3.484e-3, 1.319e+3
0.560, -6.203e-5, 3.390e-3, 1.321e+3
0.557, -6.203e-5, 3.297e-3, 1.322e+3
0.554, -6.217e-5, 3.204e-3, 1.324e+3
0.551, -6.362e-5, 3.110e-3, 1.325e+3
0.548, -6.498e-5, 3.013e-3, 1.327e+3
0.545, -6.586e-5, 2.915e-3, 1.328e+3
0.542, -6.678e-5, 2.815e-3, 1.330e+3
0.539, -6.767e-5, 2.714e-3, 1.331e+3
0.536, -6.851e-5, 2.612e-3, 1.333e+3
0.533, -6.982e-5, 2.508e-3, 1.334e+3
0.530, -7.173e-5, 2.401e-3, 1.336e+3
0.527, -7.180e-5, 2.293e-3, 1.337e+3
0.524, -7.028e-5, 2.187e-3, 1.339e+3
0.521, -6.962e-5, 2.083e-3, 1.340e+3
0.518, -6.982e-5, 1.978e-3, 1.342e+3
0.515, -7.064e-5, 1.873e-3, 1.343e+3
0.512, -7.137e-5, 1.766e-3, 1.345e+3
0.509, -7.150e-5, 1.659e-3, 1.346e+3
0.506, -7.214e-5, 1.551e-3, 1.348e+3
0.503, -7.372e-5, 1.442e-3, 1.349e+3
0.500, -7.337e-5, 1.332e-3, 1.351e+3
0.497, -7.457e-5, 1.221e-3, 1.352e+3
0.494, -7.501e-5, 1.109e-3, 1.354e+3
0.491, -7.544e-5, 9.955e-4, 1.355e+3
0.488, -7.447e-5, 8.834e-4, 1.357e+3
0.485, -7.375e-5, 7.725e-4, 1.358e+3
0.482, -7.395e-5, 6.617e-4, 1.360e+3
0.479, -7.394e-5, 5.509e-4, 1.361e+3
0.476, -7.436e-5, 4.400e-4, 1.363e+3
0.473, -7.430e-5, 3.281e-4, 1.364e+3
0.470, -7.496e-5, 2.160e-4, 1.366e+3
0.467, -7.455e-5, 1.039e-4, 1.367e+3
0.464, -7.381e-5, -7.348e-6, 1.369e+3
0.461, -7.352e-5, -1.177e-4, 1.370e+3
0.458, -7.312e-5, -2.277e-4, 1.372e+3
0.455, -7.243e-5, -3.365e-4, 1.373e+3
0.452, -7.265e-5, -4.451e-4, 1.375e+3
0.449, -7.339e-5, -5.546e-4, 1.376e+3
0.446, -7.365e-5, -6.648e-4, 1.378e+3
0.443, -7.410e-5, -7.757e-4, 1.379e+3
0.440, -7.441e-5, -8.873e-4, 1.381e+3
0.437, -7.509e-5, -9.995e-4, 1.382e+3
0.434, -7.526e-5, -1.112e-3, 1.384e+3
0.431, -7.555e-5, -1.225e-3, 1.385e+3
0.428, -7.601e-5, -1.339e-3, 1.387e+3
0.425, -7.644e-5, -1.453e-3, 1.388e+3
0.422, -7.668e-5, -1.568e-3, 1.390e+3
0.419, -7.490e-5, -1.681e-3, 1.391e+3
0.416, -7.477e-5, -1.794e-3, 1.393e+3
0.413, -7.486e-5, -1.906e-3, 1.394e+3
0.410, -7.540e-5, -2.019e-3, 1.396e+3
0.407, -7.540e-5, -2.132e-3, 1.397e+3
0.404, -7.620e-5, -2.245e-3, 1.399e+3
0.401, -7.643e-5, -2.360e-3, 1.400e+3
0.398, -7.678e-5, -2.475e-3, 1.402e+3
0.395, -7.737e-5, -2.591e-3, 1.403e+3
0.392, -7.753e-5, -2.707e-3, 1.405e+3
0.389, -7.681e-5, -2.823e-3, 1.406e+3
0.386, -7.699e-5, -2.938e-3, 1.408e+3
0.383, -7.741e-5, -3.054e-3, 1.409e+3
0.380, -7.819e-5, -3.171e-3, 1.411e+3
0.377, -7.938e-5, -3.289e-3, 1.412e+3
0.374, -8.013e-5, -3.409e-3, 1.414e+3
0.371, -8.041e-5, -3.530e-3, 1.415e+3
0.368, -8.164e-5, -3.652e-3, 1.417e+3
0.365, -8.312e-5, -3.776e-3, 1.418e+3
0.362, -8.358e-5, -3.901e-3, 1.420e+3
0.359, -8.409e-5, -4.027e-3, 1.421e+3
0.356, -8.468e-5, -4.153e-3, 1.423e+3
0.353, -8.427e-5, -4.280e-3, 1.424e+3
0.350, -8.444e-5, -4.406e-3, 1.426e+3
0.347, -8.474e-5, -4.533e-3, 1.427e+3
0.344, -8.554e-5, -4.661e-3, 1.429e+3
0.341, -8.637e-5, -4.790e-3, 1.430e+3
0.338, -8.821e-5, -4.921e-3, 1.432e+3
0.335, -8.837e-5, -5.054e-3, 1.433e+3
0.332, -8.971e-5, -5.187e-3, 1.435e+3
0.329, -9.063e-5, -5.323e-3, 1.436e+3
0.326, -9.119e-5, -5.459e-3, 1.438e+3
0.323, -9.171e-5, -5.597e-3, 1.439e+3
0.320, -9.275e-5, -5.735e-3, 1.441e+3
0.317, -9.383e-5, -5.876e-3, 1.442e+3
0.314, -9.509e-5, -6.018e-3, 1.444e+3
0.311, -9.660e-5, -6.162e-3, 1.445e+3
0.308, -9.790e-5, -6.308e-3, 1.447e+3
0.305, -9.936e-5, -6.456e-3, 1.448e+3
0.302, -1.010e-4, -6.607e-3, 1.450e+3
0.299, -1.026e-4, -6.760e-3, 1.451e+3
0.296, -1.044e-4, -6.916e-3, 1.453e+3
0.293, -1.063e-4, -7.074e-3, 1.454e+3
0.290, -1.078e-4, -7.235e-3, 1.456e+3
0.287, -1.092e-4, -7.398e-3, 1.457e+3
0.284, -1.104e-4, -7.563e-3, 1.459e+3
0.281, -1.115e-4, -7.729e-3, 1.460e+3
0.278, -1.131e-4, -7.899e-3, 1.462e+3
0.275, -1.149e-4, -8.070e-3, 1.463e+3
0.272, -1.169e-4, -8.245e-3, 1.465e+3
0.269, -1.191e-4, -8.422e-3, 1.466e+3
0.266, -1.215e-4, -8.604e-3, 1.468e+3
0.263, -1.241e-4, -8.788e-3, 1.469e+3
0.260, -1.263e-4, -8.976e-3, 1.471e+3
0.257, -1.288e-4, -9.168e-3, 1.472e+3
0.254, -1.311e-4, -9.364e-3, 1.474e+3
0.251, -1.345e-4, -9.564e-3, 1.475e+3
0.248, -1.377e-4, -9.769e-3, 1.477e+3
0.245, -1.408e-4, -9.978e-3, 1.478e+3
0.242, -1.436e-4, -1.019e-2, 1.480e+3
0.239, -1.467e-4, -1.041e-2, 1.481e+3
0.236, -1.494e-4, -1.063e-2, 1.483e+3
0.233, -1.519e-4, -1.086e-2, 1.484e+3
0.230, -1.545e-4, -1.109e-2, 1.486e+3
0.227, -1.568e-4, -1.132e-2, 1.487e+3
0.224, -1.586e-4, -1.156e-2, 1.489e+3
0.221, -1.600e-4, -1.180e-2, 1.490e+3
0.218, -1.624e-4, -1.204e-2, 1.492e+3
0.215, -1.653e-4, -1.229e-2, 1.493e+3
0.212, -1.677e-4, -1.254e-2, 1.495e+3
0.209, -1.702e-4, -1.279e-2, 1.496e+3
0.206, -1.725e-4, -1.305e-2, 1.498e+3
0.203, -1.754e-4, -1.331e-2, 1.499e+3
0.200, -1.787e-4, -1.358e-2, 1.501e+3
0.197, -1.812e-4, -1.385e-2, 1.502e+3
0.194, -1.843e-4, -1.413e-2, 1.504e+3
0.191, -1.878e-4, -1.440e-2, 1.505e+3
0.188, -1.919e-4, -1.469e-2, 1.507e+3
0.185, -1.959e-4, -1.498e-2, 1.508e+3
0.182, -1.995e-4, -1.528e-2, 1.510e+3
0.179, -2.034e-4, -1.558e-2, 1.511e+3
0.176, -2.078e-4, -1.589e-2, 1.513e+3
0.173, -2.121e-4, -1.621e-2, 1.514e+3
0.170, -2.167e-4, -1.653e-2, 1.516e+3
0.167, -2.213e-4, -1.686e-2, 1.517e+3
0.164, -2.258e-4, -1.720e-2, 1.519e+3
0.161, -2.306e-4, -1.754e-2, 1.520e+3
0.158, -2.353e-4, -1.789e-2, 1.522e+3
0.155, -2.402e-4, -1.825e-2, 1.523e+3
0.152, -2.452e-4, -1.861e-2, 1.525e+3
0.149, -2.499e-4, -1.899e-2, 1.526e+3
0.146, -2.547e-4, -1.937e-2, 1.528e+3
0.143, -2.597e-4, -1.975e-2, 1.529e+3
0.140, -2.648e-4, -2.015e-2, 1.531e+3
0.137, -2.695e-4, -2.055e-2, 1.532e+3
0.134, -2.736e-4, -2.096e-2, 1.534e+3
0.131, -2.784e-4, -2.137e-2, 1.535e+3
0.128, -2.817e-4, -2.179e-2, 1.537e+3
0.125, -2.866e-4, -2.222e-2, 1.538e+3
0.122, -2.914e-4, -2.266e-2, 1.540e+3
0.119, -2.967e-4, -2.310e-2, 1.541e+3
0.116, -3.026e-4, -2.355e-2, 1.543e+3
0.113, -3.075e-4, -2.401e-2, 1.544e+3
0.110, -3.130e-4, -2.448e-2, 1.546e+3
0.107, -3.205e-4, -2.495e-2, 1.547e+3
0.104, -3.258e-4, -2.544e-2, 1.549e+3
0.101, -3.301e-4, -2.593e-2, 1.550e+3
0.098, -3.335e-4, -2.643e-2, 1.552e+3
0.095, -3.351e-4, -2.693e-2, 1.553e+3
0.092, -3.384e-4, -2.744e-2, 1.555e+3
0.089, -3.437e-4, -2.795e-2, 1.556e+3
0.086, -3.500e-4, -2.847e-2, 1.558e+3
0.083, -3.567e-4, -2.900e-2, 1.559e+3
0.080, -3.598e-4, -2.954e-2, 1.561e+3
0.077, -3.596e-4, -3.008e-2, 1.562e+3
0.074, -3.628e-4, -3.063e-2, 1.564e+3
0.071, -3.671e-4, -3.117e-2, 1.565e+3
0.068, -3.716e-4, -3.173e-2, 1.567e+3
0.065, -3.765e-4, -3.229e-2, 1.568e+3
0.062, -3.810e-4, -3.286e-2, 1.570e+3
0.059, -3.856e-4, -3.344e-2, 1.571e+3
0.056, -3.904e-4, -3.402e-2, 1.573e+3
0.053, -3.953e-4, -3.461e-2, 1.574e+3
0.050, -4.003e-4, -3.521e-2, 1.576e+3
0.047, -4.058e-4, -3.581e-2, 1.577e+3
0.044, -4.100e-4, -3.643e-2, 1.579e+3
0.041, -4.132e-4, -3.705e-2, 1.580e+3
0.038, -4.166e-4, -3.767e-2, 1.582e+3
0.035, -4.215e-4, -3.830e-2, 1.583e+3
0.032, -4.269e-4, -3.894e-2, 1.585e+3
0.029, -4.319e-4, -3.958e-2, 1.586e+3
0.026, -4.362e-4, -4.023e-2, 1.588e+3
0.023, -4.406e-4, -4.089e-2, 1.589e+3
0.020, -4.457e-4, -4.156e-2, 1.591e+3
0.017, -4.508e-4, -4.223e-2, 1.592e+3
0.014, -4.565e-4, -4.291e-2, 1.594e+3
0.011, -4.623e-4, -4.360e-2, 1.595e+3
0.008, -4.692e-4, -4.430e-2, 1.597e+3
0.005, -4.749e-4, -4.501e-2, 1.598e+3
0.002, -4.805e-4, -4.573e-2, 1.600e+3
0.001, -4.825e-4, -4.597e-2, 1.600e+3